# WaveAns.  Transmission
 5080.00    0.00000
 5090.00    0.00000
 5100.00    0.00000
 5110.00    0.00023
 5120.00    0.00047
 5130.00    0.00070
 5140.00    0.00093
 5150.00    0.00117
 5160.00    0.00140
 5170.00    0.00164
 5180.00    0.00188
 5190.00    0.00211
 5200.00    0.00235
 5210.00    0.00259
 5220.00    0.00283
 5230.00    0.00306
 5240.00    0.00330
 5250.00    0.00354
 5260.00    0.00378
 5270.00    0.00402
 5280.00    0.00426
 5290.00    0.00450
 5300.00    0.00474
 5310.00    0.00498
 5320.00    0.00522
 5330.00    0.00546
 5340.00    0.00570
 5350.00    0.00594
 5360.00    0.00618
 5370.00    0.00642
 5380.00    0.00666
 5390.00    0.04373
 5400.00    0.08083
 5410.00    0.11795
 5420.00    0.15510
 5430.00    0.19227
 5440.00    0.22946
 5450.00    0.26668
 5460.00    0.30392
 5470.00    0.34303
 5480.00    0.38951
 5490.00    0.43602
 5500.00    0.48256
 5510.00    0.52919
 5520.00    0.57586
 5530.00    0.62256
 5540.00    0.66931
 5550.00    0.66960
 5560.00    0.66989
 5570.00    0.67018
 5580.00    0.67046
 5590.00    0.67075
 5600.00    0.67104
 5610.00    0.67104
 5620.00    0.67104
 5630.00    0.67104
 5640.00    0.67104
 5650.00    0.67104
 5660.00    0.67104
 5670.00    0.67104
 5680.00    0.67104
 5690.00    0.67104
 5700.00    0.67104
 5710.00    0.67104
 5720.00    0.67104
 5730.00    0.67104
 5740.00    0.67104
 5750.00    0.67104
 5760.00    0.67104
 5770.00    0.67104
 5780.00    0.67104
 5790.00    0.67104
 5800.00    0.67104
 5810.00    0.67104
 5820.00    0.67104
 5830.00    0.67104
 5840.00    0.67104
 5850.00    0.67104
 5860.00    0.67104
 5870.00    0.67104
 5880.00    0.67104
 5890.00    0.67104
 5900.00    0.67104
 5910.00    0.67082
 5920.00    0.67061
 5930.00    0.67039
 5940.00    0.67018
 5950.00    0.66996
 5960.00    0.66974
 5970.00    0.66953
 5980.00    0.66931
 5990.00    0.66910
 6000.00    0.66888
 6010.00    0.66852
 6020.00    0.66816
 6030.00    0.66780
 6040.00    0.66744
 6050.00    0.66708
 6060.00    0.66672
 6070.00    0.66636
 6080.00    0.66600
 6090.00    0.66564
 6100.00    0.66528
 6110.00    0.66506
 6120.00    0.66485
 6130.00    0.66463
 6140.00    0.66442
 6150.00    0.66420
 6160.00    0.66398
 6170.00    0.66377
 6180.00    0.66355
 6190.00    0.66334
 6200.00    0.66312
 6210.00    0.66290
 6220.00    0.66269
 6230.00    0.66247
 6240.00    0.66226
 6250.00    0.66204
 6260.00    0.66182
 6270.00    0.66161
 6280.00    0.66139
 6290.00    0.66118
 6300.00    0.66096
 6310.00    0.66067
 6320.00    0.66038
 6330.00    0.66010
 6340.00    0.65981
 6350.00    0.65952
 6360.00    0.65923
 6370.00    0.65894
 6380.00    0.65866
 6390.00    0.65837
 6400.00    0.65808
 6410.00    0.65758
 6420.00    0.65707
 6430.00    0.65657
 6440.00    0.65606
 6450.00    0.65556
 6460.00    0.65506
 6470.00    0.65455
 6480.00    0.65405
 6490.00    0.65354
 6500.00    0.65304
 6510.00    0.65225
 6520.00    0.65146
 6530.00    0.65066
 6540.00    0.64987
 6550.00    0.64908
 6560.00    0.64829
 6570.00    0.64750
 6580.00    0.64670
 6590.00    0.64591
 6600.00    0.64512
 6610.00    0.64433
 6620.00    0.64354
 6630.00    0.64274
 6640.00    0.64195
 6650.00    0.64116
 6660.00    0.64037
 6670.00    0.63958
 6680.00    0.63878
 6690.00    0.63799
 6700.00    0.63720
 6710.00    0.63670
 6720.00    0.63619
 6730.00    0.63569
 6740.00    0.63518
 6750.00    0.63468
 6760.00    0.63418
 6770.00    0.63367
 6780.00    0.63317
 6790.00    0.63266
 6800.00    0.63216
 6810.00    0.63115
 6820.00    0.63014
 6830.00    0.62914
 6840.00    0.62813
 6850.00    0.58841
 6860.00    0.54881
 6870.00    0.50934
 6880.00    0.47000
 6890.00    0.43078
 6900.00    0.39168
 6910.00    0.35275
 6920.00    0.31393
 6930.00    0.28205
 6940.00    0.25102
 6950.00    0.22008
 6960.00    0.18924
 6970.00    0.15848
 6980.00    0.12782
 6990.00    0.09726
 7000.00    0.06678
 7010.00    0.03640
 7020.00    0.00611
 7030.00    0.00576
 7040.00    0.00541
 7050.00    0.00507
 7060.00    0.00472
 7070.00    0.00438
 7080.00    0.00403
 7090.00    0.00369
 7100.00    0.00335
 7110.00    0.00301
 7120.00    0.00267
 7130.00    0.00233
 7140.00    0.00199
 7150.00    0.00166
 7160.00    0.00132
 7170.00    0.00099
 7180.00    0.00066
 7190.00    0.00033
 7200.00    0.00000
 7210.00    0.00000
 7220.00    0.00000
